Folder: minxsscubesat/surf_analysis/Henke_Model (part 2)

File: timed_xps_sensitivity.dat
;
;	Original SURF May 03 sensitivities - revised for agreement with SORCE XPS
; 	TNW  5/8/04
;
;	XP#	Coating		Thickness (nm)
;	----	----------	--------------
;	1	Ti/C		496/45      * 1.50
;	2	Ti/C		482/48      * 1.50
;	3	Al/Sc/C		142/23/50
;	5	Ti/Pd		229/79      * 1.40
;	6	Ti/Zr/Au	59/204/100
;	7	Al/C/Nb		374/56/50   / 1.20 > 14 nm and * 1.20 < 14 nm
;	9	Al/Mn		170/120
;	10	Cr/Al		100/170
;
;	REFERENCE:  Woods, T., E. Rodgers, S. Bailey, F. Eparvier, and G. Ucker,
;		    TIMED Solar EUV Experiment: pre-flight calibration results for the
;		    XUV Photometer System, SPIE Proceedings, 3756, 255-264, 1999.
;
;	IDL USAGE:  data = read_dat( 'timed_xps_sensitivity.dat' )
;
;		    plot_io, data[0,*], data[1,*], title='XP#1 (Ti/C)', xtitle='Wavelength (nm)', $
;			ytitle='Sensitivity (electrons/photon)'
;
;
FORMAT = (F8.4,8E11.3)
 301 lines : TIMED SEE XPS Sensitivity (electrons per photon) - revised XP#1, 5, 7 for Ver 7 processing
 9 columns : Wavelength_nm, XP#1, XP#2, XP#3, XP#5, XP#6, XP#7, XP#9, XP#10
  0.0413  1.376E+01  1.376E+01  9.183E+00  1.281E+01  9.108E+00  1.101E+01  9.178E+00  9.183E+00
  0.0448  1.629E+01  1.629E+01  1.087E+01  1.515E+01  1.076E+01  1.303E+01  1.086E+01  1.087E+01
  0.0485  1.926E+01  1.926E+01  1.286E+01  1.791E+01  1.270E+01  1.541E+01  1.285E+01  1.285E+01
  0.0525  2.275E+01  2.275E+01  1.520E+01  2.122E+01  1.496E+01  1.819E+01  1.518E+01  1.519E+01
  0.0569  2.685E+01  2.685E+01  1.795E+01  2.507E+01  1.760E+01  2.148E+01  1.792E+01  1.793E+01
  0.0617  3.166E+01  3.166E+01  2.117E+01  2.955E+01  2.067E+01  2.532E+01  2.113E+01  2.114E+01
  0.0668  3.728E+01  3.728E+01  2.495E+01  3.480E+01  2.422E+01  2.992E+01  2.489E+01  2.491E+01
  0.0724  4.381E+01  4.381E+01  2.935E+01  4.091E+01  2.864E+01  3.518E+01  2.927E+01  2.929E+01
  0.0784  5.139E+01  5.141E+01  3.448E+01  4.801E+01  3.346E+01  4.133E+01  3.435E+01  3.439E+01
  0.0849  6.018E+01  6.020E+01  4.043E+01  5.622E+01  3.898E+01  4.846E+01  4.026E+01  4.030E+01
  0.0920  7.035E+01  7.036E+01  4.737E+01  6.574E+01  4.596E+01  5.674E+01  4.710E+01  4.717E+01
  0.0997  8.205E+01  8.209E+01  5.538E+01  7.672E+01  5.335E+01  6.632E+01  5.500E+01  5.511E+01
  0.1080  9.552E+01  9.556E+01  6.468E+01  8.935E+01  6.322E+01  7.741E+01  6.412E+01  6.427E+01
  0.1170  1.109E+02  1.110E+02  7.542E+01  1.038E+02  7.330E+01  9.018E+01  7.460E+01  7.481E+01
  0.1268  1.271E+02  1.271E+02  8.685E+01  1.190E+02  8.383E+01  1.038E+02  8.568E+01  8.599E+01
  0.1373  1.466E+02  1.468E+02  1.009E+02  1.375E+02  9.656E+01  1.204E+02  9.919E+01  9.965E+01
  0.1488  1.686E+02  1.688E+02  1.169E+02  1.582E+02  1.107E+02  1.392E+02  1.145E+02  1.151E+02
  0.1612  1.929E+02  1.932E+02  1.350E+02  1.813E+02  1.264E+02  1.607E+02  1.316E+02  1.325E+02
  0.1746  2.198E+02  2.200E+02  1.555E+02  2.066E+02  1.433E+02  1.846E+02  1.508E+02  1.520E+02
  0.1892  2.485E+02  2.491E+02  1.783E+02  2.344E+02  1.613E+02  2.112E+02  1.718E+02  1.735E+02
  0.2049  2.790E+02  2.798E+02  2.038E+02  2.638E+02  1.800E+02  2.404E+02  2.030E+02  1.969E+02
  0.2220  3.105E+02  3.115E+02  2.315E+02  2.943E+02  1.988E+02  2.719E+02  2.303E+02  2.308E+02
  0.2405  3.420E+02  3.434E+02  2.613E+02  3.251E+02  2.167E+02  3.052E+02  2.596E+02  2.603E+02
  0.2606  4.355E+02  4.358E+02  2.927E+02  3.816E+02  2.370E+02  3.395E+02  2.903E+02  2.912E+02
  0.2823  4.824E+02  4.827E+02  3.265E+02  4.166E+02  2.509E+02  3.737E+02  3.215E+02  3.227E+02
  0.3058  5.282E+02  5.286E+02  3.588E+02  4.491E+02  2.601E+02  4.060E+02  3.519E+02  3.537E+02
  0.3313  5.706E+02  5.713E+02  3.893E+02  4.761E+02  2.632E+02  4.344E+02  3.801E+02  3.825E+02
  0.3589  6.070E+02  6.080E+02  4.165E+02  5.040E+02  2.588E+02  4.568E+02  4.042E+02  4.073E+02
  0.3889  6.343E+02  6.355E+02  4.383E+02  5.391E+02  2.495E+02  4.708E+02  4.222E+02  4.262E+02
  0.4213  6.498E+02  6.512E+02  4.527E+02  6.040E+02  2.346E+02  4.741E+02  4.322E+02  4.373E+02
  0.4564  6.510E+02  6.527E+02  4.583E+02  6.045E+02  2.214E+02  4.656E+02  4.327E+02  4.390E+02
  0.4944  6.369E+02  6.390E+02  4.545E+02  5.909E+02  1.972E+02  4.519E+02  4.230E+02  4.307E+02
  0.5356  6.080E+02  6.105E+02  4.412E+02  5.639E+02  1.607E+02  4.691E+02  4.035E+02  4.126E+02
  0.5803  5.662E+02  5.691E+02  4.193E+02  5.251E+02  3.326E+02  4.340E+02  3.756E+02  3.860E+02
  0.6287  5.150E+02  5.181E+02  3.915E+02  4.781E+02  2.967E+02  3.920E+02  3.416E+02  3.533E+02
  0.6811  1.408E+02  1.419E+02  1.106E+02  1.310E+02  7.946E+01  1.065E+02  9.353E+01  9.748E+01
  0.7378  1.462E+02  1.476E+02  1.197E+02  1.366E+02  8.065E+01  1.098E+02  9.739E+01  1.024E+02
  0.7993  1.475E+02  1.492E+02  1.473E+02  1.386E+02  7.939E+01  1.628E+02  1.179E+02  1.252E+02
  0.8660  1.440E+02  1.461E+02  1.579E+02  1.364E+02  7.553E+01  1.712E+02  1.202E+02  1.293E+02
  0.9382  1.355E+02  1.379E+02  1.663E+02  1.297E+02  6.914E+01  1.764E+02  1.193E+02  1.302E+02
  1.0163  1.223E+02  1.250E+02  1.720E+02  1.186E+02  6.065E+01  1.778E+02  1.149E+02  1.277E+02
  1.1011  1.053E+02  1.082E+02  1.747E+02  1.038E+02  5.067E+01  1.747E+02  1.070E+02  1.214E+02
  1.1928  8.564E+01  8.845E+01  1.733E+02  8.613E+01  4.008E+01  1.669E+02  9.573E+01  1.115E+02
  1.2923  6.489E+01  6.750E+01  1.672E+02  6.737E+01  3.064E+01  1.537E+02  8.161E+01  9.730E+01
  1.4000  4.628E+01  4.854E+01  1.590E+02  5.019E+01  2.139E+01  1.378E+02  6.724E+01  8.229E+01
  1.5167  3.045E+01  3.227E+01  1.475E+02  3.492E+01  1.416E+01  1.193E+02  5.220E+01  6.599E+01
  1.6431  1.832E+01  1.963E+01  1.338E+02  2.262E+01  9.045E+00  1.007E+02  4.447E+01  5.199E+01
  1.7801  1.009E+01  1.097E+01  1.190E+02  1.384E+01  5.538E+00  8.248E+01  3.157E+01  3.915E+01
  1.9285  5.031E+00  5.560E+00  1.039E+02  8.319E+00  3.199E+00  6.536E+01  2.150E+01  3.383E+01
  2.0892  2.228E+00  2.510E+00  8.913E+01  4.627E+00  1.871E+00  4.998E+01  8.378E+01  2.211E+01
  2.2634  1.761E+00  1.989E+00  7.517E+01  3.506E+00  1.128E+00  3.682E+01  7.008E+01  7.463E+01
  2.4520  6.848E-01  7.914E-01  6.340E+01  2.094E+00  6.402E-01  2.718E+01  5.868E+01  6.316E+01
  2.6564  2.217E-01  2.632E-01  5.287E+01  1.165E+00  3.657E-01  1.903E+01  4.717E+01  5.174E+01
  2.8779  5.388E+01  5.451E+01  4.227E+01  1.480E+01  4.501E-01  1.290E+01  3.675E+01  4.152E+01
  3.1177  4.164E+01  4.218E+01  4.157E+01  1.543E+01  2.813E-01  8.478E+00  2.808E+01  3.251E+01
  3.3777  3.057E+01  3.104E+01  3.278E+01  2.715E+01  1.846E-01  5.460E+00  2.079E+01  2.449E+01
  3.6592  2.178E+01  2.217E+01  2.490E+01  3.322E+01  1.290E-01  3.190E+00  1.458E+01  1.749E+01
  3.9642  1.524E+01  1.554E+01  1.807E+01  2.863E+01  9.724E-02  1.679E+00  9.623E+00  1.197E+01
  4.2947  1.020E+01  1.043E+01  1.246E+01  2.260E+01  8.561E-02  8.351E-01  5.944E+00  7.726E+00
  4.6527  1.076E+01  1.139E+01  1.420E+01  1.728E+01  8.213E-02  7.122E-01  3.445E+00  4.730E+00
  5.0405  8.016E+00  8.559E+00  1.128E+01  1.473E+01  9.788E-02  4.523E-01  2.179E+00  3.213E+00
  5.4605  5.044E+00  5.439E+00  7.725E+00  1.115E+01  1.236E-01  2.752E-01  1.219E+00  1.840E+00
  5.9157  3.006E+00  3.277E+00  4.837E+00  8.422E+00  2.454E-01  1.270E-01  6.160E-01  9.400E-01
  6.4090  1.842E+00  2.030E+00  2.817E+00  6.583E+00  7.573E-01  3.935E-02  2.818E-01  4.399E-01
  6.9432  1.046E+00  1.164E+00  1.376E+00  4.726E+00  1.402E+00  8.664E-03  1.053E-01  1.625E-01
  7.5220  5.605E-01  6.309E-01  8.268E-01  3.388E+00  1.773E+00  3.106E-03  4.978E-02  7.436E-02
  8.1490  3.491E-01  3.971E-01  5.433E-01  2.873E+00  1.842E+00  1.184E-03  2.532E-02  3.877E-02
  8.8279  2.197E-01  2.526E-01  3.737E-01  2.453E+00  1.505E+00  5.069E-04  1.442E-02  2.077E-02
  9.5641  1.309E-01  1.520E-01  2.405E-01  1.800E+00  1.033E+00  1.996E-04  7.809E-03  1.022E-02
 10.3611  6.922E-02  8.145E-02  1.987E-01  1.055E+00  5.833E-01  1.457E-04  5.833E-03  6.841E-03
 11.2251  3.006E-02  3.605E-02  2.032E-01  4.291E-01  2.493E-01  1.925E-04  5.646E-03  6.405E-03
 12.1611  1.507E-02  1.835E-02  2.136E-01  1.445E-01  1.189E-01  2.647E-04  5.594E-03  5.847E-03
 13.1741  8.190E-03  1.010E-02  2.419E-01  3.578E-02  3.764E-02  4.079E-04  5.652E-03  5.292E-03
 14.2722  5.018E-03  6.229E-03  2.580E-01  5.942E-03  1.137E-02  3.927E-04  4.466E-03  4.129E-03
 15.4620  2.327E-03  2.927E-03  3.928E-01  4.435E-04  2.836E-03  1.376E-03  5.142E-03  4.694E-03
 16.7509  6.912E-04  8.917E-04  5.653E-01  6.112E-05  5.068E-04  3.590E-03  4.773E-03  4.109E-03
 18.1471  6.540E-05  8.922E-05  4.709E+00  7.155E-06  4.533E-05  8.950E-01  2.483E-02  2.152E-02
 19.6597  2.754E-07  4.333E-07  3.554E+00  3.118E-07  2.013E-06  3.475E-01  5.509E-03  5.369E-03
 21.2985  2.555E-11  5.166E-11  2.491E+00  3.219E-09  1.106E-07  1.087E-01  7.614E-04  1.627E-03
 23.0741  1.151E-16  3.256E-16  1.542E+00  8.848E-12  3.172E-09  2.305E-02  4.857E-05  1.115E-03
 24.9975  1.220E-22  5.007E-22  6.958E-01  1.196E-14  1.598E-11  3.212E-03  1.944E-03  1.890E-03
 27.0807  9.557E-25  4.419E-24  2.382E-01  9.325E-16  2.592E-14  7.167E-04  1.317E-01  1.607E-02
 29.3385  8.423E-23  3.351E-22  6.044E-02  6.322E-15  2.577E-17  2.606E-04  8.879E-02  1.663E-01
 31.7839  1.498E-18  4.395E-18  2.162E-02  6.073E-13  1.922E-17  1.156E-04  3.873E-02  1.923E-01
 34.4332  2.402E-15  5.549E-15  1.773E-02  1.763E-11  4.199E-16  6.357E-04  1.547E-02  1.050E-01
 37.3033  1.308E-13  2.604E-13  2.382E-01  9.772E-11  4.037E-15  2.452E-03  6.179E-03  4.185E-02
 40.4127  4.078E-14  8.036E-14  1.342E-01  4.591E-11  4.839E-14  3.682E-03  2.056E-03  1.339E-02
 43.7809  2.544E-16  5.498E-16  6.595E-02  3.815E-12  1.359E-12  2.177E-03  5.660E-04  3.048E-03
 47.4308  5.354E-18  1.217E-17  2.954E-02  6.825E-13  5.012E-12  7.365E-04  1.289E-04  4.915E-04
 51.3844  2.826E-18  6.139E-18  1.207E-02  6.770E-13  5.607E-13  1.720E-04  3.102E-05  9.330E-05
 55.6668  1.638E-17  3.170E-17  4.520E-03  2.405E-12  2.882E-14  2.857E-05  6.937E-06  2.095E-05
 60.3084  8.060E-16  1.316E-15  1.808E-03  2.449E-11  4.020E-14  3.826E-06  2.591E-06  7.156E-06
 65.3368  4.512E-15  6.771E-15  9.225E-04  8.897E-11  4.473E-14  5.865E-07  9.172E-07  2.976E-06
 70.7793  4.180E-15  6.119E-15  5.212E-04  1.863E-10  2.744E-14  1.249E-07  5.665E-07  1.731E-06
 76.6809  1.156E-15  1.736E-15  2.994E-04  2.115E-10  4.668E-15  3.025E-08  3.218E-07  1.338E-06
 83.0731  1.662E-16  2.697E-16  2.897E-05  1.508E-10  4.253E-16  5.240E-11  1.677E-08  1.185E-07
 89.9964  2.162E-17  3.890E-17  1.463E-07  1.125E-10  4.841E-17  3.073E-17  1.821E-11  4.809E-10
 97.4990  2.604E-18  5.341E-18  3.119E-08  7.308E-11  7.198E-18  2.360E-19  1.232E-12  8.541E-11
105.6232  2.386E-19  5.632E-19  1.101E-08  3.749E-11  1.753E-18  6.673E-21  1.522E-13  2.474E-11
114.4268  1.373E-20  3.759E-20  2.698E-09  1.539E-11  1.576E-18  8.176E-23  1.378E-14  4.724E-12
123.9700  2.701E-22  8.679E-22  2.179E-10  4.374E-12  2.193E-17  8.241E-26  4.277E-16  2.933E-13